Folder: pypi-mirror-385/packages/dara-xrd/dara_xrd-1.1.1-py3-none-any.whl/dara/data/BGMN-Templates/Devices

Note: README.md
# PyPI code 385

This repository is part of a project to make all code in PyPI as accessible as possible. For more information 
on the project and to find out how to utilise this data, see the website: https://py-code.org/

This repo contains 48207 packages uploaded to PyPI between 
2025-10-17 20:11 and 2025-10-21 22:41.

The repo is 88% (42843/48207) complete.

Package contents can be found [in the code branch](https://github.com/pypi-data/pypi-mirror-385/tree/code/packages).

A browsable package list for all repositories [all packages here](https://py-code.org/repositories/pypi-mirror-385).

File: RMS-D8-ADS-15-Glass-LynxEyeXE-bkgr.xy
4.000000 965
4.257270 877
4.514540 865
4.771810 714
5.029080 717
5.286350 662
5.543620 630
5.800890 599
6.058160 546
6.315430 548
6.572700 592
6.829970 558
7.087240 578
7.344510 543
7.601780 500
7.859050 531
8.116320 512
8.373590 534
8.630860 568
8.888130 577
9.145400 567
9.402671 523
9.659941 545
9.917211 549
10.1745 556
10.4318 559
10.689 542
10.9463 558
11.2036 571
11.4608 572
11.7181 583
11.9754 604
12.2326 593
12.4899 634
12.7472 627
13.0045 628
13.2617 608
13.519 694
13.7763 635
14.0335 661
14.2908 672
14.5481 690
14.8053 698
15.0626 620
15.3199 678
15.5772 734
15.8344 719
16.0917 695
16.349 758
16.6062 832
16.8635 821
17.1208 799
17.378 881
17.6353 896
17.8926 913
18.1499 952
18.4071 991
18.6644 964
18.9217 998
19.1789 1008
19.4362 1070
19.6935 1084
19.9507 1135
20.208 1185
20.4653 1131
20.7226 1182
20.9798 1248
21.2371 1211
21.4944 1301
21.7516 1344
22.0089 1347
22.2662 1425
22.5234 1494
22.7807 1495
23.038 1458
23.2953 1450
23.5525 1493
23.8098 1482
24.0671 1537
24.3243 1530
24.5816 1530
24.8389 1616
25.0961 1494
25.3534 1570
25.6107 1472
25.868 1542
26.1252 1523
26.3825 1533
26.6398 1639
26.897 1588
27.1543 1486
27.4116 1548
27.6688 1470
27.9261 1506
28.1834 1573
28.4407 1494
28.6979 1493
28.9552 1523
29.2125 1445
29.4697 1414
29.727 1429
29.9843 1360
30.2415 1423
30.4988 1335
30.7561 1283
31.0134 1263
31.2706 1343
31.5279 1201
31.7852 1277
32.0424 1293
32.2997 1162
32.557 1176
32.8142 1178
33.0715 1114
33.3288 1200
33.5861 1162
33.8433 1088
34.1006 1098
34.3579 1140
34.6151 1092
34.8724 1084
35.1297 1121
35.3869 1067
35.6442 1025
35.9015 996
36.1588 995
36.416 969
36.6733 943
36.9306 1009
37.1878 966
37.4451 965
37.7024 933
37.9596 990
38.2169 877
38.4742 896
38.7315 922
38.9887 866
39.246 889
39.5033 866
39.7605 862
40.0178 865
40.2751 836
40.5323 838
40.7896 889
41.0469 902
41.3042 891
41.5614 887
41.8187 954
42.076 860
42.3332 891
42.5905 931
42.8478 900
43.105 859
43.3623 871
43.6196 925
43.8769 896
44.1341 901
44.3914 950
44.6487 896
44.9059 981
45.1632 894
45.4205 905
45.6777 929
45.935 856
46.1923 924
46.4496 883
46.7068 874
46.9641 888
47.2214 860
47.4786 891
47.7359 896
47.9932 905
48.2504 925
48.5077 941
48.765 871
49.0223 896
49.2795 937
49.5368 895
49.7941 922
50.0513 923
50.3086 891
50.5659 909
50.8231 817
51.0804 860
51.3377 899
51.595 883
51.8522 843
52.1095 891
52.3668 944
52.624 929
52.8813 888
53.1386 912
53.3958 871
53.6531 935
53.9104 890
54.1677 907
54.4249 965
54.6822 901
54.9395 925
55.1967 930
55.454 959
55.7113 895
55.9685 980
56.2258 981
56.4831 959
56.7404 914
56.9976 965
57.2549 912
57.5122 961
57.7694 976
58.0267 981
58.284 1001
58.5412 1010
58.7985 934
59.0558 972
59.3131 944
59.5703 964
59.8276 995
60.0849 1019
60.3421 983
60.5994 986
60.8567 976
61.1139 1013
61.3712 1011
61.6285 982
61.8858 985
62.143 959
62.4003 969
62.6576 967
62.9148 1003
63.1721 1030
63.4294 1029
63.6866 1005
63.9439 971
64.2012 972
64.4585 1006
64.7157 1006
64.973 987
65.2303 1002
65.4875 999
65.7448 1032
66.0021 967
66.2593 1007
66.5166 933
66.7739 986
67.0312 950
67.2884 1009
67.5457 974
67.803 994
68.0602 993
68.3175 985
68.5748 985
68.832 987
69.0893 1017
69.3466 892
69.6039 937
69.8611 943
70.1184 944
70.3757 910
70.6329 982
70.8902 968
71.1475 978
71.4047 969
71.662 974
71.9193 907
72.1766 888
72.4338 922
72.6911 920
72.9484 907
73.2056 936
73.4629 914
73.7202 918
73.9774 924
74.2347 928
74.492 958
74.7493 894
75.0065 887
75.2638 892
75.5211 925
75.7783 896
76.0356 882
76.2929 918
76.5501 922
76.8074 911
77.0647 866
77.322 846
77.5792 897
77.8365 889
78.0938 869
78.351 839
78.6083 892
78.8656 876
79.1228 911
79.3801 839
79.6374 837
79.8947 837
80.0172 882

File: xpert-xcel-htk-ads-10.xy
7.28831 0.0917536
7.2986 0.0991418
7.30889 0.10728
7.31917 0.116261
7.32946 0.12619
7.33974 0.137187
7.35003 0.149391
7.36031 0.162964
7.3706 0.178088
7.38088 0.19498
7.39117 0.213886
7.40146 0.235098
7.41174 0.258953
7.42203 0.285847
7.43231 0.316245
7.4426 0.350695
7.45288 0.389845
7.46317 0.434461
7.47346 0.485454
7.48374 0.543912
7.49403 0.611133
7.50431 0.688677
7.5146 0.778417
7.52488 0.882614
7.53517 1.004
7.54545 1.14589
7.55574 1.31232
7.56603 1.50821
7.57632 1.73948
7.5866 2.01339
7.59689 2.33873
7.60718 2.72616
7.61747 3.18856
7.62776 3.7413
7.63805 4.40256
7.64833 5.1935
7.65862 6.13811
7.66891 7.26263
7.6792 8.59423
7.68949 10.1585
7.69977 11.9759
7.71006 14.0563
7.72035 16.393
7.73064 18.9576
7.74093 21.6985
7.75121 24.5481
7.7615 27.4432
7.77179 30.3613
7.78208 33.369
7.79237 36.6714
7.80265 40.638
7.81294 45.7706
7.82323 52.5588
7.83352 61.1829
7.84381 71.1464
7.8541 81.2625
7.86438 90.6416
7.87467 100.472
7.88496 114.387
7.89525 134.555
7.90554 156.189
7.91582 175.655
7.92611 206.088
7.9364 246.852
7.94669 288.241
7.95698 355.784
7.96726 456.919
7.97755 633.631
7.98784 914.746
7.99813 921.38
8.00842 382.261
8.0187 52.3164
8.02899 14.4815
8.03928 7.10487
8.04957 4.42151
8.05986 3.09381
8.07015 2.31494
8.08043 1.80774
8.09072 1.45382
8.10101 1.19464
8.1113 0.997974
8.12159 0.844665
8.13187 0.722594
8.14216 0.623721
8.15245 0.542502
8.16274 0.474991
8.17303 0.418305
8.18331 0.370292
8.1936 0.329312
8.20389 0.294098
8.21418 0.263655
8.22447 0.237192
8.23475 0.214077
8.24504 0.193793
8.25533 0.17592
8.26562 0.160112
8.27591 0.146081
8.2862 0.133585
8.29648 0.122422
8.30677 0.112422
8.31706 0.103439
8.32735 0.0953487
12.6614 0.199037
12.6714 0.233456
12.6814 0.275524
12.6914 0.327336
12.7015 0.391669
12.7115 0.472241
12.7215 0.574084
12.7315 0.704078
12.7416 0.871731
12.7516 1.09032
12.7616 1.37859
12.7717 1.76324
12.7817 2.28266
12.7917 2.99224
12.8017 3.97173
12.8118 5.33523
12.8218 7.24211
12.8318 9.90422
12.8419 13.5769
12.8519 18.5089
12.8619 24.8266
12.872 32.3793
12.882 40.752
12.892 49.8491
12.902 61.1686
12.9121 78.5407
12.9221 105.096
12.9321 136.51
12.9422 172.028
12.9522 235.294
12.9622 315.22
12.9722 471.453
12.9823 722.882
12.9923 993.568
13.0023 749.517
13.0124 178.226
13.0224 25.6261
13.0324 9.11474
13.0425 4.74339
13.0525 2.92152
13.0625 1.97221
13.0725 1.41009
13.0826 1.0489
13.0926 0.803342
13.1026 0.629358
13.1127 0.502115
13.1227 0.406684
13.1327 0.333622
13.1427 0.276715
13.1528 0.231736
19.7919 0.302296
19.8017 0.398289
19.8116 0.534679
19.8214 0.732961
19.8312 1.02853
19.8411 1.48111
19.8509 2.19375
19.8608 3.34658
19.8706 5.2531
19.8805 8.43424
19.8903 13.642
19.9002 21.6019
19.91 32.3122
19.9199 45.4422
19.9297 64.9861
19.9395 98.6427
19.9494 141.509
19.9592 217.793
19.9691 343.904
19.9789 578.326
19.9888 902.49
19.9986 919.641
20.0084 366.727
20.0183 41.4278
20.0281 9.57589
20.038 3.86724
20.0478 1.99964
20.0577 1.18311
29.8573 0.418426
29.8671 0.609862
29.8769 0.921803
29.8866 1.4543
29.8964 2.41289
29.9062 4.24272
29.9159 7.94614
29.9257 15.7545
29.9355 31.8738
29.9453 60.48
29.955 104.934
29.9648 205.948
29.9746 396.385
29.9843 702.048
29.9941 999.545
30.0039 652.774
30.0136 96.7565
30.0234 13.0057
30.0332 4.50403
30.0429 2.15017
30.0527 1.19771
41.8951 0.538046
41.9046 0.885113
41.9141 1.55648
41.9236 2.97782
41.9331 6.33705
41.9426 15.3249
41.9521 41.7361
41.9617 112.774
41.9712 262.736
41.9807 527.493
41.9902 906.543
41.9997 880.822
42.0092 278.545
42.0187 19.3583
42.0282 4.95945
42.0378 2.06421
42.0473 1.05157
55.9226 1.10966
55.9321 2.36504
55.9416 5.92911
55.9511 18.4615
55.9606 69.7463
55.9701 209.468
55.9797 455.287
55.9892 839.943
55.9987 919.377
56.0082 306.374
56.0177 15.3239
56.0272 3.34797
75.9355 1.91178
75.9451 5.51239
75.9546 22.021
75.9642 102.47
75.9737 276.052
75.9833 568.202
75.9929 982.777
76.0024 718.812
76.012 89.759
76.0215 6.96749
89.938 2.11265
89.9476 6.37798
89.9572 27.625
89.9668 129.969
89.9764 321.403
89.9859 651.569
89.9955 996.218
90.0051 533.744
90.0147 36.2642
90.0243 4.77609
104.943 2.95417
104.953 10.2693
104.962 53.1447
104.972 197.404
104.981 449.37
104.991 895.545
105.001 845.019
105.01 202.2
105.02 13.1757
119.948 3.07114
119.957 12.4195
119.967 79.6099
119.976 268.42
119.986 608.783
119.996 999.929
120.005 599.832
120.015 68.6345
120.024 8.23383
134.956 4.71001
134.965 23.8856
134.975 161.32
134.985 477.4
134.994 962.295
135.004 748.992
135.013 154.48
135.023 21.4584
135.033 5.17863
135.042 1.81051
149.961 4.04649
149.971 21.8118
149.98 188.89
149.99 672.381
149.999 981.435
150.009 490.638
150.018 107.431
150.028 23.7222
150.037 5.88301
150.047 2.04815
150.056 0.895152
150.058 0.797348